[{"success": true, "timeout": false, "failed_images": [], "failed_audio": [], "failed_video": [], "trial_type": "preload", "trial_index": 0, "time_elapsed": 697, "internal_node_id": "0.0-0.0"}, {"rt": 1404, "stimulus": ["<p> Welcome! </p> <p> We are conducting an experiment about how people evaluate intuitive physics situations when asked a question in plain english. Your answers will be used to inform computer science and cognitive science research.</p><p> This experiment should take around <strong>10 minutes</strong></p> <p> We take your time seriously! The email for the main experimenter is <strong>juliush@mit.edu</strong>. </br></br> Please write this down now, and email us with the subject line <i>Human experiment for intuitive physics</i> if you have problems submitting this task, or if it takes much more time than expected. </p><p>  Press any key to begin. </p>"], "response": " ", "trial_type": "html-keyboard-response", "trial_index": 1, "time_elapsed": 2101, "internal_node_id": "0.0-1.0"}, {"rt": 913, "stimulus": ["<p>In this experiment, you will be presented with a series of images containing <strong>stacks of blocks and some simple questions.</strong></p><p>The block are stacked on a grey platform in a configuration which may or may not be stable.</p><p>In each situation, you will be asked to imagine what will occur after a sufficiently large amount of time has passed and gravity has finished acting on the stacks of blocks.", "<p>Your task will be to think about how these blocks will fall and their position <strong>after they have finished falling</strong>. Note that sometimes, you may be presented with a stable stack where no blocks will fall.<p>You will enter your answer for each question by clicking a rating on a <strong>7-point multiple choice scale</strong> ranging from <strong>1 (definitely no)</strong> to <strong>7 (definitely yes)</strong>.", "<p>You will see descriptions of <strong>24  different scenarios</strong> in total.</p><p> When you are ready, please click any key to complete a quick comprehension check, before moving on to the experiment. </p>"], "response": " ", "trial_type": "html-keyboard-response", "trial_index": 2, "time_elapsed": 3015, "internal_node_id": "0.0-2.0-0.0"}, {"rt": 2608, "response": {"Q0": "Look at images containing blocks and answer questions about what will happen in the image after gravity has acted on the blocks.", "Q1": "By selecting an option from a multiple choice scale."}, "question_order": [0, 1], "trial_type": "survey-multi-choice", "trial_index": 3, "time_elapsed": 5628, "internal_node_id": "0.0-2.0-1.0"}, {"rt": 1794, "response": {"Q0": 2}, "question_order": [0], "english_question": "After some time has passed, will there be more red boxes to the left of the platform than purple boxes on the platform?", "box_ensemble_index": 0, "task": "answer_physical_image_questions", "task_id": 1, "trial_type": "survey-likert", "trial_index": 4, "time_elapsed": 7430, "internal_node_id": "0.0-3.0-0.0"}, {"rt": 1133, "response": {"Q0": 4}, "question_order": [0], "english_question": "After some time has passed, will there be more red boxes to the left of the platform than purple boxes on the platform?", "box_ensemble_index": 1, "task": "answer_physical_image_questions", "task_id": 2, "trial_type": "survey-likert", "trial_index": 5, "time_elapsed": 8569, "internal_node_id": "0.0-4.0-0.0"}, {"rt": 1210, "response": {"Q0": "", "Q1": "", "Q2": "", "Q3": ""}, "trial_type": "survey-text", "trial_index": 6, "time_elapsed": 9794, "internal_node_id": "0.0-5.0"}]